Folder: aspect/data/material-model/steinberger/test-steinberger-compressible

File: peridotite_rheology.txt
273.0 	1500.0	0.0	0.000e+00	2.725830e-01
381.888	1815.26	0.0	0.000e+00	3.744034e-01
490.775	2130.52	0.0	0.000e+00	5.553796e+00
599.663	2445.78	0.0	0.000e+00	2.591876e+01
708.55	2761.04	0.0	0.000e+00	6.830809e+01
817.438	3076.31	0.0	0.000e+00	1.307893e+02
926.325	3391.57	1.0	0.000e+00	2.068403e+02
1035.21	3706.83	1.0	0.000e+00	2.899550e+02
1144.1	4022.09	1.0	0.000e+00	3.757459e+02
1252.99	4337.35	1.0	0.000e+00	4.611359e+02
1361.88	4652.61	1.0	0.000e+00	5.459068e+02
1470.76	4967.87	1.0	8.341e-02	6.292381e+02
1579.65	5283.13	3.0	1.625e-01	7.113141e+02
1688.54	5598.39	3.0	2.474e-01	7.918927e+02
364.695	6228.92	0.0	0.000e+00	2.360304e+00
473.582	6544.18	0.0	0.000e+00	2.893084e+01
582.47	6859.44	0.0	0.000e+00	1.181537e+02
691.357	7174.7	0.0	0.000e+00	2.803574e+02
800.245	7489.96	0.0	0.000e+00	4.942299e+02
909.133	7805.22	1.0	0.000e+00	7.324087e+02
1018.02	8120.48	1.0	0.000e+00	9.738097e+02
1126.91	8435.74	1.0	0.000e+00	1.204989e+03
1235.8	8751.0	1.0	0.000e+00	1.422960e+03
1344.68	9066.27	1.0	0.000e+00	1.623534e+03
1453.57	9381.53	1.0	0.000e+00	1.807179e+03
1562.46	9696.79	1.0	8.467e-02	1.975239e+03
1671.35	10012.0	3.0	1.568e-01	2.129953e+03
347.502	10642.6	0.0	0.000e+00	1.458684e+01
456.39	10957.8	0.0	0.000e+00	1.382362e+02
565.277	11273.1	0.0	0.000e+00	4.794879e+02
674.165	11588.4	0.0	0.000e+00	1.002150e+03
783.052	11903.6	0.0	0.000e+00	1.594668e+03
891.94	12218.9	1.0	0.000e+00	2.170908e+03
1000.83	12534.1	1.0	0.000e+00	2.700146e+03
1109.71	12849.4	1.0	0.000e+00	3.164798e+03
1218.6	13164.7	1.0	0.000e+00	3.566465e+03
1327.49	13479.9	1.0	0.000e+00	3.911503e+03
1436.38	13795.2	1.0	0.000e+00	4.208511e+03
1545.27	14110.4	1.0	0.000e+00	4.463690e+03
1654.15	14425.7	1.0	9.334e-02	4.684705e+03
330.309	15056.2	0.0	0.000e+00	9.866530e+01
439.197	15371.5	0.0	0.000e+00	6.520168e+02
548.084	15686.7	0.0	0.000e+00	1.868795e+03
656.972	16002.0	0.0	0.000e+00	3.384910e+03
765.859	16317.3	0.0	0.000e+00	4.824249e+03
874.747	16632.5	0.0	0.000e+00	6.016131e+03
983.635	16947.8	1.0	0.000e+00	6.950314e+03
1092.52	17263.1	1.0	0.000e+00	7.669044e+03
1201.41	17578.3	1.0	0.000e+00	8.216997e+03
1310.3	17893.6	1.0	0.000e+00	8.636439e+03
1419.18	18208.8	1.0	0.000e+00	8.959034e+03
1528.07	18524.1	1.0	0.000e+00	9.209983e+03
1636.96	18839.4	1.0	0.000e+00	9.406557e+03
313.116	19469.9	0.0	0.000e+00	9.186839e+02
422.004	19785.1	0.0	0.000e+00	3.153271e+03
530.892	20100.4	0.0	0.000e+00	7.194984e+03
639.779	20415.7	0.0	0.000e+00	1.123854e+04
748.667	20730.9	0.0	0.000e+00	1.420245e+04
857.554	21046.2	0.0	0.000e+00	1.609015e+04
966.442	21361.4	1.0	0.000e+00	1.719388e+04
1075.33	21676.7	1.0	0.000e+00	1.779216e+04
1184.22	21992.0	1.0	0.000e+00	1.807941e+04
1293.1	22307.2	1.0	0.000e+00	1.817108e+04
1401.99	22622.5	1.0	0.000e+00	1.815473e+04
1510.88	22937.8	1.0	0.000e+00	1.805962e+04
1619.77	23253.0	1.0	0.000e+00	1.792565e+04
295.924	23883.5	0.0	0.000e+00	3.702497e+04
404.811	24198.8	0.0	0.000e+00	1.603042e+04
513.699	24514.1	0.0	0.000e+00	2.820950e+04
622.586	24829.3	0.0	0.000e+00	3.719424e+04
731.474	25144.6	0.0	0.000e+00	4.130787e+04
840.361	25459.8	0.0	0.000e+00	4.224313e+04
949.249	25775.1	1.0	0.000e+00	4.158639e+04
1058.14	26090.4	1.0	0.000e+00	4.023885e+04
1167.02	26405.6	1.0	0.000e+00	3.867112e+04
1275.91	26720.9	1.0	0.000e+00	3.712875e+04
1384.8	27036.1	1.0	0.000e+00	3.564456e+04
1493.69	27351.4	1.0	0.000e+00	3.427424e+04
1602.57	27666.7	1.0	0.000e+00	3.302960e+04
278.731	28297.2	0.0	0.000e+00	2.499980e+08
387.618	28612.4	0.0	0.000e+00	8.978143e+04
496.506	28927.7	0.0	0.000e+00	1.135961e+05
605.394	29243.0	0.0	0.000e+00	1.241579e+05
714.281	29558.2	0.0	0.000e+00	1.199878e+05
823.169	29873.5	0.0	0.000e+00	1.100771e+05
932.056	30188.8	1.0	0.000e+00	9.934928e+04
1040.94	30504.0	1.0	0.000e+00	8.974492e+04
1149.83	30819.3	1.0	0.000e+00	8.138212e+04
1258.72	31134.5	1.0	0.000e+00	7.437268e+04
1367.61	31449.8	1.0	0.000e+00	6.852016e+04
1476.49	31765.1	1.0	0.000e+00	6.362404e+04
1585.38	32080.3	1.0	0.000e+00	5.948369e+04
1694.27	32395.6	1.0	0.000e+00	5.595993e+04
370.426	33026.1	0.0	0.000e+00	5.693043e+05
479.313	33341.4	0.0	0.000e+00	4.764669e+05
588.201	33656.6	0.0	0.000e+00	4.218619e+05
697.088	33971.9	0.0	0.000e+00	3.508150e+05
805.976	34287.1	0.0	0.000e+00	2.874511e+05
914.863	34602.4	1.0	0.000e+00	2.367095e+05
1023.75	34917.7	1.0	0.000e+00	1.982574e+05
1132.64	35232.9	1.0	0.000e+00	1.692165e+05
1241.53	35548.2	1.0	0.000e+00	1.470652e+05
1350.41	35863.5	1.0	0.000e+00	1.298585e+05
1459.3	36178.7	1.0	0.000e+00	1.162756e+05
1568.19	36494.0	1.0	0.000e+00	1.053835e+05
1677.08	36809.2	1.0	0.000e+00	9.648681e+04
353.233	37439.8	0.0	0.000e+00	4.279801e+06
462.12	37755.0	0.0	0.000e+00	2.109111e+06
571.008	38070.3	0.0	0.000e+00	1.471643e+06
679.896	38385.5	0.0	0.000e+00	1.043550e+06
788.783	38700.8	0.0	0.000e+00	7.534250e+05
897.671	39016.1	1.0	0.000e+00	5.632078e+05
1006.56	39331.3	1.0	0.000e+00	4.364887e+05
1115.45	39646.6	1.0	0.000e+00	3.497111e+05
1224.33	39961.8	1.0	0.000e+00	2.883762e+05
1333.22	40277.1	1.0	0.000e+00	2.437126e+05
1442.11	40592.4	1.0	0.000e+00	2.102124e+05
1551.0	40907.6	1.0	0.000e+00	1.844745e+05
1659.88	41222.9	1.0	0.000e+00	1.644786e+05
336.04	41853.4	0.0	0.000e+00	4.095864e+07
444.928	42168.7	0.0	0.000e+00	1.007745e+07
553.815	42483.9	0.0	0.000e+00	5.339143e+06
662.703	42799.2	0.0	0.000e+00	3.155476e+06
771.59	43114.5	0.0	0.000e+00	1.995197e+06
880.478	43429.7	1.0	0.000e+00	1.345545e+06
989.365	43745.0	1.0	0.000e+00	9.612202e+05
1098.25	44060.2	1.0	0.000e+00	7.208186e+05
1207.14	44375.5	1.0	0.000e+00	5.628542e+05
1316.03	44690.8	1.0	0.000e+00	4.544139e+05
1424.92	45006.0	1.0	0.000e+00	3.778882e+05
1533.8	45321.3	1.0	0.000e+00	3.207564e+05
1642.69	45636.5	1.0	0.000e+00	2.774926e+05
318.847	46267.1	0.0	0.000e+00	6.312012e+08
427.735	46582.3	0.0	0.000e+00	5.231759e+07
536.622	46897.6	0.0	0.000e+00	2.010987e+07
645.51	47212.9	0.0	0.000e+00	9.770860e+06
754.398	47528.1	0.0	0.000e+00	5.358865e+06
863.285	47843.4	1.0	0.000e+00	3.240207e+06
972.173	48158.6	1.0	0.000e+00	2.123536e+06
1081.06	48473.9	1.0	0.000e+00	1.485860e+06
1189.95	48789.2	1.0	0.000e+00	1.099600e+06
1298.84	49104.4	1.0	0.000e+00	8.463964e+05
1407.72	49419.7	1.0	0.000e+00	6.746762e+05
1516.61	49734.9	1.0	0.000e+00	5.534382e+05
1625.5	50050.2	1.0	0.000e+00	4.649279e+05
301.655	50680.7	0.0	0.000e+00	3.432794e+10
410.542	50996.0	0.0	0.000e+00	3.032227e+08
519.43	51311.2	0.0	0.000e+00	7.954604e+07
628.317	51626.5	0.0	0.000e+00	3.114873e+07
737.205	51941.8	0.0	0.000e+00	1.464937e+07
846.092	52257.0	1.0	0.000e+00	7.887454e+06
954.98	52572.3	1.0	0.000e+00	4.742997e+06
1063.87	52887.6	1.0	0.000e+00	3.083883e+06
1172.76	53202.8	1.0	0.000e+00	2.142906e+06
1281.64	53518.1	1.0	0.000e+00	1.570424e+06
1390.53	53833.3	1.0	0.000e+00	1.201028e+06
1499.42	54148.6	1.0	0.000e+00	9.510690e+05
1608.31	54463.9	1.0	0.000e+00	7.749937e+05
284.462	55094.4	0.0	0.000e+00	2.431743e+14
393.349	55409.6	0.0	0.000e+00	2.022163e+09
502.237	55724.9	0.0	0.000e+00	3.331737e+08
611.124	56040.2	0.0	0.000e+00	1.027067e+08
720.012	56355.4	2.0	0.000e+00	4.091884e+07
828.9 	56670.7	1.0	0.000e+00	1.958945e+07
937.787	56985.9	1.0	0.000e+00	1.063835e+07
1046.67	57301.2	1.0	0.000e+00	6.408762e+06
1155.56	57616.5	1.0	0.000e+00	4.185379e+06
1264.45	57931.7	1.0	0.000e+00	2.913743e+06
1373.34	58247.0	1.0	0.000e+00	2.135044e+06
1482.22	58562.2	1.0	0.000e+00	1.630228e+06
1591.11	58877.5	1.0	0.000e+00	1.287528e+06
1700.0	59192.8	1.0	0.000e+00	1.045632e+06
376.157	59823.3	0.0	0.000e+00	1.619808e+10
485.044	60138.6	0.0	0.000e+00	1.492824e+09
593.932	60453.8	0.0	0.000e+00	3.562284e+08
702.819	60769.1	2.0	0.000e+00	1.182860e+08
811.707	61084.3	2.0	0.000e+00	4.917946e+07
920.594	61399.6	1.0	0.000e+00	2.411864e+07
1029.48	61714.9	1.0	0.000e+00	1.340441e+07
1138.37	62030.1	1.0	0.000e+00	8.205152e+06
1247.26	62345.4	1.0	0.000e+00	5.415575e+06
1356.14	62660.6	1.0	0.000e+00	3.795072e+06
1465.03	62975.9	1.0	0.000e+00	2.790703e+06
1573.92	63291.2	1.0	0.000e+00	2.139962e+06
1682.81	63606.4	1.0	0.000e+00	1.689666e+06
358.964	64236.9	0.0	0.000e+00	1.733153e+11
467.851	64552.2	0.0	0.000e+00	7.383944e+09
576.739	64867.5	0.0	0.000e+00	1.278682e+09
685.627	65182.7	2.0	0.000e+00	3.488301e+08
794.514	65498.0	2.0	0.000e+00	1.258110e+08
903.402	65813.3	1.0	0.000e+00	5.537299e+07
1012.29	66128.5	1.0	0.000e+00	2.827382e+07
1121.18	66443.8	1.0	0.000e+00	1.616756e+07
1230.06	66759.0	1.0	0.000e+00	1.009535e+07
1338.95	67074.3	1.0	0.000e+00	6.780464e+06
1447.84	67389.6	1.0	0.000e+00	4.793225e+06
1556.73	67704.8	1.0	0.000e+00	3.544340e+06
1665.61	68020.1	1.0	0.000e+00	2.719592e+06
341.771	68650.6	0.0	0.000e+00	2.506448e+12
450.659	68965.9	0.0	0.000e+00	3.942733e+10
559.546	69281.1	0.0	0.000e+00	4.824946e+09
668.434	69596.4	2.0	0.000e+00	1.062234e+09
777.321	69911.6	2.0	0.000e+00	3.287336e+08
886.209	70226.9	1.0	0.000e+00	1.289693e+08
995.096	70542.2	1.0	0.000e+00	6.023009e+07
1103.98	70857.4	1.0	0.000e+00	3.225380e+07
1212.87	71172.7	1.0	0.000e+00	1.898654e+07
1321.76	71488.0	1.0	0.000e+00	1.210217e+07
1430.65	71803.2	1.0	0.000e+00	8.216460e+06
1539.53	72118.5	1.0	0.000e+00	5.870349e+06
1648.42	72433.7	1.0	0.000e+00	4.372680e+06
324.578	73064.3	0.0	0.000e+00	6.032189e+13
433.466	73379.5	0.0	0.000e+00	2.354419e+11
542.353	73694.8	0.0	0.000e+00	1.925603e+10
651.241	74010.0	2.0	0.000e+00	3.351736e+09
760.129	74325.3	2.0	0.000e+00	8.798829e+08
869.016	74640.6	2.0	0.000e+00	3.054151e+08
977.904	74955.8	1.0	0.000e+00	1.307387e+08
1086.79	75271.1	1.0	0.000e+00	6.452582e+07
1195.68	75586.3	1.0	0.000e+00	3.574677e+07
1304.57	75901.6	1.0	0.000e+00	2.167082e+07
1413.45	76216.9	1.0	0.000e+00	1.410955e+07
1522.34	76532.1	1.0	0.000e+00	9.730021e+06
1631.23	76847.4	1.0	0.000e+00	7.030135e+06
307.386	77477.9	0.0	0.000e+00	4.487829e+15
416.273	77793.2	0.0	0.000e+00	1.610512e+12
525.161	78108.4	0.0	0.000e+00	8.190408e+10
634.048	78423.7	2.0	0.000e+00	1.099960e+10
742.936	78739.0	2.0	0.000e+00	2.449420e+09
851.823	79054.2	2.0	0.000e+00	7.442241e+08
960.711	79369.5	1.0	0.000e+00	2.855921e+08
1069.6	79684.7	1.0	0.000e+00	1.302523e+08
1178.49	80000.0	1.0	0.000e+00	6.772982e+07
1700.0	80000.0	1.0	0.000e+00	7.667610e+06